Complete	Category	Game object	Event name	Trigger	Condition/Variant	Context	SFX desc	Variations	Loop	Stop event	VFX/Anim	UI response	Music	Code hook	Signal	Status	Priority	Notes
FALSE	Match	System	match_intro	The two gladiators are on the sand but not yet swinging	Fires once, before start_fighting() is called	The held breath before the fight. Both fighters are posed and idle-bobbing, the crowd is settled, and the player has a beat to read the nameplates and see what their gladiator is wearing. Everything after this is chaos, so this moment should feel deliberately still.	Announcer horn or gate clank, single hit, room for the crowd to swell under it	1	FALSE		Wanted: brief camera settle or gate open; nothing exists today	Nameplates already seeded by BattleNameplate.setup()	music_pre_match plays under it	—	NEW: match_intro_started	planned	P1	No pre-fight beat exists; _ready() starts the fight immediately. Adding this means inserting a wait before start_fighting().
TRUE	Match	System	match_started	Both gladiators begin their attack rhythms	Always, once per match	The fight is on. Both fighters snap out of idle and the first swings land within a second. This is the go signal and it needs to be unmistakable, because the player only has from here until someone dies to feed items in.	Sharp start-of-round hit - gong, whistle or blade-scrape - short so the first swing is not buried	1	FALSE		Existing: units switch from idle_bob into their attack cadence	Nameplates visible and full	music_battle_intro starts here	auto_battle_prototype.gd:_ready	GlobalSignalBus.match_started	implemented	P0	Has its own signal as of the SFX wiring pass. level_started is still emitted alongside it, but level_01.gd:_ready emits that one too, so the fight's go-signal audio hangs off match_started instead.
TRUE	Match	Either Gladiator	match_first_blood	The first damage of the match is dealt	First unit_hurt emission only; suppressed for every hit after	First blood. Mechanically identical to any other hit, but it is the moment the match stops being a staredown. Worth a one-time crowd lift so the opening reads as an escalation rather than a flat loop of swings.	Crowd surge or single stinger layered over the normal hit sound	1	FALSE		Reuse the standard hit flash and shake	First damage number of the match	Optional music intensity step	—	GlobalSignalBus.match_first_blood	implemented	P2	Needs a one-shot latch in the battle controller; unit_hurt fires on every hit.
TRUE	Match	System	match_ended_hero_victory	The enemy gladiator dies and the fight stops	battle_ended(hero_won = true)	The player's gladiator is the one left standing. This lands the instant the enemy hits zero, roughly a second before the victory panel appears, so it is the emotional payoff and the panel is just the paperwork.	Triumphant stinger, crowd roar tail; must sit above the ambient bed	1	FALSE		Existing: loser plays the death animation; winner returns to idle	BattleEndOverlay queued, revealed after death_anim_wait	Cut battle loop, start music_victory	auto_battle_prototype.gd:_on_unit_died	GlobalSignalBus.battle_ended	implemented	P0	battle_ended carries a bool, so SoundEffectConnector can bind it, but one connector cannot tell victory from defeat - it plays on both. Two rows means either a code hook or two argument-aware listeners.
TRUE	Match	System	match_ended_hero_defeat	The hero gladiator dies and the fight stops	battle_ended(hero_won = false)	The player's fighter goes down. They almost certainly saw it coming - the health bar has been draining and they were scrambling for meat - so this should feel like a confirmation of a slow loss, not a jump scare.	Deflating stinger, crowd falls away rather than roars	1	FALSE		Existing: hero plays the death animation	BattleEndOverlay shows the defeat text	Cut battle loop, start music_defeat	auto_battle_prototype.gd:_on_unit_died	GlobalSignalBus.battle_ended	implemented	P0	See the victory row: the same signal covers both outcomes.
TRUE	Match	UI	match_result_revealed	The victory/defeat panel fades in	After BattleEndOverlay.death_anim_wait (0.8s) has elapsed	The panel arrives once the death animation has played out. By now the outcome sound has already told the player what happened, so this is a quieter UI beat that hands control back and points at the restart button.	Soft panel whoosh, deliberately understated	1	FALSE		Existing: OverlayRoot becomes visible	Result label and restart button appear	Result track already playing underneath	battle_end_overlay.gd:_on_battle_ended	GlobalSignalBus.match_result_revealed(hero_won)	implemented	P1	The reveal can be cancelled mid-wait by hide_result() or a scene teardown - do not start a loop here.
TRUE	Match	UI	match_restart_requested	The player presses Restart on the result panel	Always	The player wants another go. The whole scene reloads immediately after, so anything here is cut off almost at once - keep it to a confirmation click.	Standard UI confirm click	1	FALSE		Existing: scene reloads	Overlay disappears with the scene	Stop the result track	battle_end_overlay.gd:_on_restart_pressed	GlobalSignalBus.ui_button_pressed	implemented	P1	reload_current_scene() fires on the same frame; a long sample will be truncated.
TRUE	Combat	Either Gladiator	gladiator_swing_armed	A gladiator starts an attack on a pattern beat	A WeaponDef occupies the RIGHT_HAND slot	A sword swing. The blade is visibly in the fighter's hand and this swing will hit for weapon damage instead of a bare fist, so it should sound heavier and more dangerous than the unarmed version - the player equipped that sword and should hear the difference every time.	Blade whoosh, metallic edge, weighted	3	FALSE		Existing: attack animation restarted from frame 0	—		battle_unit.gd:_fire_beat	GlobalSignalBus.unit_swing(unit, armed, exhausted)	implemented	P0	The moment is implemented but the armed/unarmed split is not exposed: unit_attacked carries no weapon info and roll_attack_damage only runs later at the strike. Needs the beat to query equipment.has_slot(RIGHT_HAND). Also note unit_attacked has two arguments, so SoundEffectConnector cannot bind it as written.
TRUE	Combat	Either Gladiator	gladiator_swing_unarmed	A gladiator starts an attack on a pattern beat	No weapon in RIGHT_HAND (no equipment component, or the sword broke)	A bare-handed swing. This is the default state and also what a fighter falls back to the moment their sword shatters, so it should sound thinner and less capable - the audible reminder that they need a weapon.	Cloth and air, dull, no metal	3	FALSE		Existing: attack animation restarted from frame 0	—		battle_unit.gd:_fire_beat	GlobalSignalBus.unit_swing(unit, armed, exhausted)	implemented	P0	Same split as the armed row. Every enemy is permanently in this state - enemies have no EquipmentComponent by design.
TRUE	Combat	Either Gladiator	gladiator_swing_exhausted	A gladiator swings while out of stamina	stamina_component.has_stamina() is false, so _speed_scale() returns 0.5	A tired swing. The whole attack rhythm is running at half speed and the fighter is visibly slower, so this variant should sound laboured - the cue that a stamina potion is overdue.	Slower, breathier version of the normal swing, with an effort grunt	2	FALSE		Existing: the entire pattern playhead runs at half rate	Stamina bar is empty on the nameplate		battle_unit.gd:_fire_beat	GlobalSignalBus.unit_swing(unit, armed, exhausted)	implemented	P1	Layer or substitute against the armed/unarmed swing rather than adding a third exclusive sound.
TRUE	Combat	Either Gladiator	gladiator_strike_lands	The attack animation reaches its lunge apex and applies damage	Attacker and target both still alive at the apex	The connection itself, about a quarter second after the swing starts. This is the impact frame the whole animation builds to, and it is where the impact sound belongs - the swing sound sold the wind-up, this sells the hit.	Impact transient; the hit-specific rows below layer on top	1	FALSE		Existing: target flashes white and shakes	Damage number spawns above the target		battle_unit.gd:_on_attack_strike	GlobalSignalBus.unit_strike_landed(attacker, target, armed)	implemented	P0	Called by the attack animation's method track, not by code - see the AnimationPlayer 'attack' track. Fires before take_damage, so the armored/unarmored variant is not yet known here.
TRUE	Combat	Either Gladiator	gladiator_swing_whiffs	A swing reaches its strike frame with nothing left to hit	Target already dead (or null) when _on_attack_strike runs	The fighter follows through on a swing at an opponent who is already down. Rare, and it happens on the final blow of a match, so it should read as a wasted effort rather than an error.	Swing tail with no impact - the absence of the hit is the point	1	FALSE		Existing: animation plays out fully with no damage applied	No damage number		battle_unit.gd:_on_attack_strike	GlobalSignalBus.unit_strike_whiffed(attacker)	implemented	P2	Currently a silent early-return. Mostly visible at match end when both fighters have swings in flight.
TRUE	Combat	Either Gladiator	gladiator_hit_unarmored	A gladiator takes damage with nothing to soak it	No EquipmentComponent, or no armor pieces equipped - full damage lands	Bare flesh and bone. The gladiator has no helmet or breastplate and the blow lands on them directly. This should sting, and it must read as clearly worse than the armored version so the player feels the cost of leaving their fighter bare.	Wet, fleshy thud with a body reaction; the most painful hit in the set	4	FALSE		Existing: white flash (0.08s) and a four-step shake	Damage number, nameplate health bar drops		battle_unit.gd:take_damage	GlobalSignalBus.unit_damage_resolved(unit, amount, armored)	implemented	P0	Both enemies are always in this state. unit_hurt carries two arguments, so SoundEffectConnector cannot bind it directly.
TRUE	Combat	Either Gladiator	gladiator_hit_armored	A gladiator takes damage that armor partially soaks	At least one ArmorDef equipped and the mitigated amount is still above zero	The blow gets through, but not all of it. The armor is doing its job and quietly wearing down for it. This should sit between the bare hit and the fully-blocked one, so the player can hear their armor working without being told it saved them completely.	Metal-over-body: a clang with a soft impact under it	4	FALSE		Existing: white flash and shake, same as unarmored	Reduced damage number, health bar drops less		battle_unit.gd:take_damage	GlobalSignalBus.unit_damage_resolved(unit, amount, armored)	implemented	P0	Mitigated damage is what every listener receives, so the damage number already tells the truth. Exactly one random armor piece takes 1 wear on this hit - see equipment_armor_wear.
TRUE	Combat	Either Gladiator	gladiator_hit_fully_absorbed	A gladiator takes a hit that armor cancels entirely	Mitigated damage clamps to 0	The armor ate the whole blow. A 0 still floats up and the fighter still flinches, so this is the sound of a hit that did not hurt - satisfying, dull, no pain. It also means a durability point just burned, so it should carry a hint of wear.	Solid deadened clang, no flesh, slight scrape of wear underneath	3	FALSE		Existing: still flashes and shakes - deliberate honest feedback	A literal 0 damage number, health bar unchanged		battle_unit.gd:take_damage	GlobalSignalBus.unit_damage_resolved(unit, amount, armored)	implemented	P1	The code comment at take_damage explains the intent: a fully absorbed hit still shows a 0 so the player knows the armor ate it and wore down for it.
TRUE	Combat	Either Gladiator	gladiator_hit_by_sword	The incoming blow came from a weapon	Attacker had a WeaponDef equipped when the strike landed	Attacker-side flavour on the impact. A sword hit and a fist hit should not sound the same on the receiving end either - this is the layer that says what hit you, while the armored/unarmored rows say what it hit.	Edged component layered onto the base impact	2	FALSE		Reuse the standard flash and shake	—		battle_unit.gd:_on_attack_strike	GlobalSignalBus.unit_strike_landed — armed=true	implemented	P2	Layer, do not replace. The receiving side currently has no idea what struck it.
TRUE	Combat	Either Gladiator	gladiator_hit_by_fist	The incoming blow came from a bare hand	Attacker had no weapon equipped	The unarmed counterpart of the row above. Should sound noticeably weaker so a player watching an enemy punch their armored gladiator understands they are in no danger.	Blunt low thump layered onto the base impact	2	FALSE		Reuse the standard flash and shake	—		battle_unit.gd:_on_attack_strike	GlobalSignalBus.unit_strike_landed — armed=false	implemented	P2	Layer, do not replace.
TRUE	Combat	Either Gladiator	gladiator_health_low	A gladiator's health crosses a low threshold	Health falls below a set fraction of max; fires once per crossing	The fighter is in real danger. For the hero this is the cue to spend meat right now; for the enemy it is the cue that the match is nearly won. It must be readable without looking at the nameplate, because the player's eyes are on the item pile.	Heartbeat or strained breath; consider a slow loop rather than a one-shot	1	FALSE		Wanted: red vignette or a persistent tint on the fighter	Health bar could pulse	Optional music intensity step	battle_unit.gd:_on_health_changed	GlobalSignalBus.unit_health_low(unit)	implemented	P1	Must latch, or it re-fires on every subsequent hit. Decide whether it re-arms when health is healed back above the threshold.
TRUE	Combat	Hero Gladiator	gladiator_died_hero	The hero gladiator's health reaches zero	HealthComponent.died on the hero	The player's fighter collapses. The death animation rotates and fades the sprite over the next moment, and the defeat panel is already on a timer. This is the loss, felt at the body rather than in the UI.	Body fall with a final breath; heavier than the enemy version	1	FALSE		Existing: 'death' animation - sprite rotates and self_modulate fades	Health bar reads 0/max	Battle music cuts here	battle_unit.gd:_on_died	GlobalSignalBus.hero_gladiator_died	implemented	P0	unit_died carries the unit node; a listener needs the side to distinguish this from the enemy row.
TRUE	Combat	Enemy Gladiator	gladiator_died_enemy	The enemy gladiator's health reaches zero	HealthComponent.died on the enemy	The opponent goes down and the player has won. Same animation as the hero's death but the framing is opposite - this one should feel earned rather than mourned.	Body fall with a defeated cry	1	FALSE		Existing: 'death' animation	Health bar reads 0/max	Battle music cuts here	battle_unit.gd:_on_died	GlobalSignalBus.enemy_gladiator_died	implemented	P0	Fires immediately before battle_ended - order the two so the death lands first.
TRUE	Combat	Either Gladiator	gladiator_healed	A healing item is used on a gladiator	HealEffect.apply raises current health	Meat goes in and the health bar jumps back up. The player just spent a scarce item and dragged it across the arena to do this, so the payoff needs to be immediate and clearly good.	Warm restorative swell with an eating or gulping element	2	FALSE		Wanted: green flash or rising particles; nothing exists today	Health bar rises, nameplate numbers update		items/effects/heal_effect.gd:apply	GlobalSignalBus.unit_healed(unit, amount)	implemented	P0	The heal itself works; there is no signal announcing it. HealthComponent.health_changed fires but cannot distinguish healing from damage.
TRUE	Combat	Either Gladiator	gladiator_heal_wasted	A healing item is used on a gladiator already at full health	current_health clamps at max, so nothing changes	The player just burned an item for nothing. Better to tell them than to let the item silently vanish - a small negative cue teaches them to hold the meat until it matters.	Soft dull reject, clearly not the healing sound	1	FALSE		—	Health bar visibly does not move		items/effects/heal_effect.gd:apply	GlobalSignalBus.unit_heal_wasted(unit)	implemented	P2	The clamp lives in HealthComponent.current_health's setter; detecting waste means comparing before and after.
TRUE	Combat	Either Gladiator	gladiator_stamina_spent	A gladiator pays stamina for an attack	Every beat, before the swing animation starts	The steady drain that runs under every fight. On its own it is far too frequent to sound - this row exists so the stamina bar movement is catalogued, and so a designer can decide it stays silent.	Probably none; the bar movement carries it	0	FALSE		—	Stamina bar ticks down on the nameplate		battle_unit.gd:_fire_beat	GlobalSignalBus.hero_gladiator_stamina_changed / enemy_gladiator_stamina_changed	implemented	P2	Fires on every single beat of the match. Do not attach a one-shot here without deciding it is not fatiguing.
TRUE	Combat	Either Gladiator	gladiator_stamina_depleted	A gladiator's stamina reaches zero	has_stamina() flips false; the attack rhythm immediately halves	The fighter is spent. Their whole attack pattern stretches to half speed from this instant, which is a large mechanical swing the player must notice - if they miss it they will not know to feed a potion.	Gasping exhale, sagging tone; a clear state-change sound	1	FALSE		Wanted: slumped posture or sweat particles	Stamina bar hits empty		battle_unit.gd:_speed_scale	GlobalSignalBus.unit_stamina_depleted(unit)	implemented	P0	_speed_scale is polled per frame and emits nothing; the crossing needs latching in StaminaComponent so it fires once, not every frame.
TRUE	Combat	Either Gladiator	gladiator_exhausted_loop	Sustained bed while a gladiator is out of stamina	Runs for as long as has_stamina() is false	The ongoing state, not the moment it began. Heavy breathing under the fight that keeps quietly telling the player their gladiator is struggling until they fix it.	Looping laboured breathing, low in the mix	1	TRUE	gladiator_stamina_recovered	—	Empty stamina bar for the duration		battle_unit.gd:_speed_scale	GlobalSignalBus.unit_stamina_depleted / unit_stamina_recovered	implemented	P2	Needs both edges of the crossing to start and stop cleanly; a unit can die while exhausted, so death must also stop this.
TRUE	Combat	Either Gladiator	gladiator_stamina_restored	A stamina item is used on a gladiator	StaminaRestoreEffect.apply raises current stamina	A potion goes in and the stamina bar refills. Distinct from the health item because the payoff is a change in fight tempo rather than survival - the player should hear the drink and then see the swings speed up.	Fizzing or gulping restore with an upward lift	2	FALSE		Wanted: blue flash or bubbles	Stamina bar rises on the nameplate		items/effects/stamina_restore_effect.gd:apply	GlobalSignalBus.unit_stamina_restored(unit, amount)	implemented	P0	Fires whether or not the fighter was actually exhausted.
TRUE	Combat	Either Gladiator	gladiator_stamina_recovered	A gladiator that was out of stamina has some again	has_stamina() flips back to true after being false	The fighter gets their wind back and the attack rhythm snaps to full speed. This is the reward beat for the potion the player just spent, and it is what stops the exhausted breathing loop.	Relieved breath and a recovery lift; also the stop cue for the exhausted loop	1	FALSE		Wanted: posture straightens	Stamina bar leaves empty		prototypes/stamina_component.gd:restore	GlobalSignalBus.unit_stamina_recovered(unit)	implemented	P1	Only fires on the false-to-true crossing - a top-up on a fighter who still had stamina is gladiator_stamina_restored, not this.
TRUE	Equipment	Hero Gladiator	equipment_equipped_weapon	A weapon item is dropped on a gladiator and worn	The item's EquipmentDef is a WeaponDef, RIGHT_HAND slot	The player just armed their gladiator. The sword appears in the fighter's hand on the rig and every future swing hits for weapon damage. This is one of the most consequential things the player can do and should feel like a genuine upgrade.	Sword draw and grip, confident metallic ring	2	FALSE		Existing: EquipmentRigSync sets sword_equipped on the rig	The dragged item disappears from the world		items/equipment/equipment_component.gd:equip	GlobalSignalBus.unit_equipped(unit, slot, item_def, replaced)	implemented	P0	changed(slot) carries only the slot, not the kind - a listener must inspect the piece to tell weapon from armor. Only the hero has an EquipmentComponent.
TRUE	Equipment	Hero Gladiator	equipment_equipped_armor	An armor item is dropped on a gladiator and worn	The item's EquipmentDef is an ArmorDef, e.g. the helmet in the HEAD slot	The player just protected their gladiator. Incoming hits will now be soaked and the hit sound changes from flesh to metal, so this needs to sound protective and settled - a buckle, not a blade.	Leather and metal buckling on, settling weight	2	FALSE		Existing: EquipmentRigSync sets helmet_equipped on the rig	The dragged item disappears from the world		items/equipment/equipment_component.gd:equip	GlobalSignalBus.unit_equipped(unit, slot, item_def, replaced)	implemented	P0	CHEST and LEFT_HAND slots exist in the enum but have no art or defs yet.
TRUE	Equipment	Hero Gladiator	equipment_swapped	A new piece is equipped into an already-occupied slot	equip() returns a non-null previous piece	Fresh gear replaces worn gear mid-fight. The old piece is not destroyed - it pops back out into the pile with its remaining durability intact - so this should read as a trade rather than a loss.	Layer a quick unbuckle or sheath under the equip sound	1	FALSE		Existing: rig toggles stay on; the slot's contents change	—		items/equipment/equipment_component.gd:equip	GlobalSignalBus.unit_equipped — replaced=true	implemented	P1	Pairs with equipment_displaced_piece_popped, which fires on the same frame - do not double up two loud sounds.
TRUE	Equipment	Item	equipment_displaced_piece_popped	The replaced piece is thrown back into the arena	Only when a swap displaced something	The old sword or helmet is lobbed up out of the gladiator's hands and tumbles back into the pile, still carrying its scars. The player can pick it up again, so it needs to visibly and audibly land rather than just appear.	Light gear toss; the landing is covered by item_landed	1	FALSE		Existing: item spawns above the unit with upward velocity and spin	Durability pie on the popped piece reflects its remaining wear		items/item.gd:_spawn_unequipped	GlobalSignalBus.equipment_piece_popped(item)	implemented	P1	Spawned into the item container, so it obeys the normal despawn timer from that moment.
TRUE	Equipment	Hero Gladiator	equipment_weapon_wear	An equipped weapon loses a durability point	Every landed strike costs the weapon exactly 1	The sword chips a little on every hit it lands. Individually trivial and far too frequent for a dedicated sound, but the wear is what makes weapons temporary, so it should be audible as texture inside the impact rather than as its own event.	Fold into the sword impact rather than adding a separate sample	0	FALSE		—	Durability pie shrinks (visible only while hovered or dragged)		items/equipment/equipment_component.gd:_wear	—	implemented	P2	Damage is read before wear is charged, so the strike that empties a weapon still lands at full weapon damage.
TRUE	Equipment	Hero Gladiator	equipment_armor_wear	An equipped armor piece loses a durability point	One randomly chosen equipped armor piece per incoming hit	Armor grinds down as it absorbs. Like weapon wear this is constant and belongs inside the hit sound as a scrape, not as its own cue - but it is why armor is a consumable and not a permanent upgrade.	Fold a scrape into the armored hit sounds	0	FALSE		—	Durability pie shrinks		items/equipment/equipment_component.gd:absorb_hit	—	implemented	P2	Every equipped armor piece contributes its full value to mitigation, but only one random piece takes the wear.
TRUE	Equipment	Hero Gladiator	equipment_nearly_broken	An equipped piece drops to its last durability point	durability reaches 1 after a wear tick	One more hit and this piece is gone. The player has a short window to swap in a replacement, and the durability pie is only visible on hover, so audio is the only way they find out in time.	Stressed creak or crack; ominous, not alarming	1	FALSE		Wanted: the equipped piece could flash on the rig	Durability pie is nearly all red		items/equipment/equipment_component.gd:_wear	GlobalSignalBus.unit_equipment_nearly_broken(unit, slot, item_def)	implemented	P1	The pie is hidden unless the item is hovered or dragged - see Item.set_durability_shown - which is exactly why this needs a sound.
TRUE	Equipment	Hero Gladiator	equipment_broke_weapon	An equipped weapon's durability runs out and it is destroyed	broken(slot, item_def) for a WeaponDef	The sword shatters mid-fight and simply vanishes from the gladiator's hand. The player's next swing will be a bare fist doing less damage. This is a small disaster and needs to cut through the crowd bed so it is never missed.	Sharp metal snap and shards; the most attention-grabbing gear sound	2	FALSE		Existing: EquipmentRigSync clears sword_equipped - the sword disappears	—	Optional stinger	items/equipment/equipment_component.gd:_wear	EquipmentComponent.broken / GlobalSignalBus.unit_equipment_broke	implemented	P0	Broken gear vanishes entirely - there is no world drop. broken and changed both fire; wire audio to broken only.
TRUE	Equipment	Hero Gladiator	equipment_broke_armor	An equipped armor piece's durability runs out and it is destroyed	broken(slot, item_def) for an ArmorDef	The helmet gives way. From the very next hit the fighter is taking full damage again, and the hit sounds revert from metal to flesh. The player needs to hear this to know their protection is gone.	Crumpling metal collapse; heavy, final	2	FALSE		Existing: EquipmentRigSync clears helmet_equipped	—	Optional stinger	items/equipment/equipment_component.gd:_wear	EquipmentComponent.broken / GlobalSignalBus.unit_equipment_broke	implemented	P0	If it was the last armor piece, subsequent hits switch to gladiator_hit_unarmored.
TRUE	Equipment	Hero Gladiator	equipment_rig_changed	The gladiator's visible gear is synced to the equipment state	Any changed(slot) with a rig property mapped for that slot	The purely visual half of equipping and breaking - the sword or helmet appearing or disappearing on the fighter's body. Included so the visual sync is catalogued alongside its audio, not because it needs its own sound.	None; the equip and break rows own the audio	0	FALSE		Existing: sets sword_equipped / helmet_equipped on the GladiatorBones rig	—		items/equipment/equipment_rig_sync.gd:_on_changed	EquipmentComponent.changed	implemented	P2	Only HEAD and RIGHT_HAND are mapped in SLOT_PROPERTIES; other slots sync nothing.
TRUE	Equipment	Item	equipment_reject_invalid_target	The player drops equipment on a gladiator that cannot wear it	can_use_on returns false - the enemy has no EquipmentComponent	The player tried to put a helmet on the enemy. Nothing happens, the item stays in the pile, and right now they get no explanation at all - it just looks broken. A small reject cue turns a bug-feeling moment into a rule.	Short dull reject thunk	1	FALSE		Existing: the drop-zone outline never lit, so there was no promise to break	No outline highlight while hovering		items/item.gd:can_use_on	GlobalSignalBus.item_drop_rejected(item, unit)	implemented	P1	The absent hover outline is already the negative feedback; decide whether a sound on release adds clarity or just noise.
TRUE	Items	Item	item_spawned_thrown	A spawner lobs a new item into the arena	Every spawn_interval (plus jitter) while spawning is enabled	Items are thrown in from the sides on a constant timer - this is where the whole item economy comes from. It happens roughly once a second all match, so it must be light enough to live in the background.	Short whoosh of something thrown in from offscreen	3	FALSE		Existing: item launches on an arc with random spin	—		items/item_spawner.gd:_spawn_one	GlobalSignalBus.item_spawned(item_def)	implemented	P1	Fires about once a second per spawner and there are two spawners - keep it quiet or drop it in favour of the landing sound.
FALSE	Items	Item	item_landed	A thrown item hits the arena floor or a wall	First contact with the world layer	The clatter of the pile growing. This is the sound the arena floor makes all match and is the main texture of the item layer, so it should vary by item type - a sword clangs, meat slaps, a potion clinks.	Per-type impact: metal, flesh, glass, junk	4	FALSE		Existing: RigidBody2D physics settle	—		—	NEW: contact_monitor on Item	planned	P1	Item has no contact reporting today - contact_monitor and max_contacts_reported must be enabled, which is a per-body cost worth measuring against a pile of items.
FALSE	Items	Item	item_item_collision	Two items knock into each other in the pile	Item-on-item contact above a velocity threshold	Items jostling as the pile churns and as the player drags one through it. Very frequent and easy to turn into mush, so it needs a velocity gate and a hard limit on how many can sound at once.	Light clatter, quieter than a landing	3	FALSE		Existing: physics only	—		—	NEW: contact_monitor on Item	planned	P2	Needs both a velocity threshold and a voice cap or the pile becomes a wall of noise.
TRUE	Items	Item	item_grabbed	The player picks an item up with the mouse	Left mouse down over an item, including one sitting in a hotbar slot	The player takes hold of something. The item becomes light and follows the cursor on a spring. This is the most-repeated player action in the game and the confirmation that the click landed on the item they meant.	Quick pick-up scuff, varied per item type	4	FALSE		Existing: item switches to the light carried physics profile	Durability pie shows if the item is equipment		items/drag_controller.gd:_try_pick	Item.grabbed	implemented	P0	Also fires when lifting an item back out of a hotbar slot - the slot treats it as gone at that moment.
TRUE	Items	Item	item_dragged_loop	Sustained bed while an item is being carried	For as long as a drag is live	The item is dangling off the cursor and dragging through the pile on its way to the gladiator. A light continuous cue helps sell the weight of what is being carried.	Soft looping scrape or rustle, very low in the mix	1	TRUE	item_released	Existing: spring force pulls the item toward the cursor	—		items/drag_controller.gd:_physics_process	GlobalSignalBus.item_drag_started / item_drag_ended	implemented	P2	The dragged item can despawn out from under the drag - the loop must stop on that too, not just on release.
TRUE	Items	Item	item_released	The player lets go of a carried item	Left mouse up; covers drops that do nothing as well as ones that land somewhere	The player lets go. What happens next depends on where the cursor is - a hotbar slot, a gladiator, or nothing at all - so this is the neutral release and the follow-up rows carry the outcome.	Light release, deliberately neutral	2	FALSE		Existing: item returns to the heavy physics profile	Drop-zone outline clears		items/drag_controller.gd:_release	GlobalSignalBus.item_drag_ended(item)	implemented	P1	Also the stop cue for item_dragged_loop. Hotbar placement is checked before any gladiator - UI wins over world.
TRUE	Items	Hero Gladiator	item_hover_valid_target	A carried item is dragged over a gladiator that can use it	Unit alive and can_use_on true; equipment additionally needs an EquipmentComponent	The gladiator lights up under the dragged item - the game promising that releasing here will do something. This is the single most useful piece of feedback in the drag interaction and currently has no sound at all.	Soft rising hover tick; must not repeat while the hover is held	1	FALSE		Existing: outline shader on the unit's sprite (ItemDropZone.set_highlighted)	Unit is visibly outlined		items/drag_controller.gd:_set_hover_zone	GlobalSignalBus.item_hover_target_entered(item, unit)	implemented	P0	_set_hover_zone already early-returns when the zone has not changed, so a sound wired here fires once per hover rather than per frame.
TRUE	Items	Hero Gladiator	item_hover_lost	The drag leaves a highlighted gladiator	Hover zone changes to null or to a different unit	The promise is withdrawn - releasing here would now do nothing. Quieter than the enter cue; mostly it just needs to not be silent, so the player knows the state changed.	Soft falling counterpart to the hover tick	1	FALSE		Existing: outline cleared	Outline disappears		items/drag_controller.gd:_set_hover_zone	GlobalSignalBus.item_hover_target_lost(item)	implemented	P2	Also fires when the drag ends or the item despawns mid-drag.
TRUE	Items	Item	item_drop_ignored	An item is released somewhere that does nothing with it	No hotbar slot and no valid drop zone under either the cursor or the item	The player dropped an item on empty sand. Common and usually intentional - they are just clearing the pile - so this should be almost nothing, distinct from a genuine rejection.	Nothing beyond the physical landing	0	FALSE		Existing: the item just falls	—		items/drag_controller.gd:_try_drop_on_unit	GlobalSignalBus.item_drop_ignored(item)	implemented	P2	Distinct from equipment_reject_invalid_target, where the player aimed at a gladiator and was refused.
TRUE	Items	Hero Gladiator	item_consumed_meat	Meat is used on a gladiator	ItemDef.Type.MEAT with a HealEffect	The gladiator eats. The item is consumed and vanishes from the world, and the health bar jumps. Should sound like food, and should be immediately distinguishable from drinking a potion so the player can confirm they grabbed the right thing.	Tearing and chewing, wet and satisfying	2	FALSE		Wanted: green heal flash	Health bar rises; the item is gone from the pile		items/item.gd:use_on	GlobalSignalBus.item_consumed(item_def, unit)	implemented	P0	Reachable from both routes: dropped on a gladiator, or spent from a hotbar slot with a number key.
TRUE	Items	Hero Gladiator	item_consumed_potion	A potion is used on a gladiator	ItemDef.Type.POTION with a StaminaRestoreEffect	The gladiator drinks. Same consumption path as meat but the payoff is tempo rather than survival, so it must sound clearly different - glass and liquid against the meat's tearing.	Cork, glug, glass set-down	2	FALSE		Wanted: blue restore flash	Stamina bar rises; the item is gone from the pile		items/item.gd:use_on	GlobalSignalBus.item_consumed(item_def, unit)	implemented	P0	Same route as meat; the def's effect subclass is what differs.
TRUE	Items	Item	item_durability_shown	The durability pie appears over an item	The item is equipment and is hovered or dragged	The little red-and-green wear gauge pops up over a piece of gear as the cursor passes it. Pure information, and it appears constantly as the cursor sweeps the pile - almost certainly silent.	None recommended	0	FALSE		Existing: DurabilityPie becomes visible and redraws	The pie itself is the UI		items/item.gd:set_durability_shown	—	implemented	P2	Hidden by default so the pile is not a wall of gauges - see the DurabilityPie doc comment.
TRUE	Items	Item	item_despawn_warning	An item starts blinking near the end of its lifetime	Despawn timer fires; the blink runs out the last few seconds of lifetime	An item in the pile starts blinking: it has a few seconds left. Often the player is mid-reach for it. Should be a gentle nag, not an alarm - it fires constantly as the pile churns and must not become fatigue.	Very soft repeating tick, or nothing at all	1	FALSE		Existing: alpha blinks down to blink_min_alpha and back, blink_rate times a second	A blinking item is still grabbable - alpha stays above 0 on purpose		items/item.gd:_blink_then_despawn	—	implemented	P1	With two spawners running this can be true for several items at once - needs a voice cap if it gets a sound.
TRUE	Items	Item	item_despawned	An item reaches the end of its lifetime and is freed	The blink tween finishes	The item is gone. The warning blink already told the player it was coming, so this is a confirmation rather than news - and it is what keeps the pile from growing without bound.	Soft poof, or silence if the blink warning already carries it	1	FALSE		Existing: the node is freed and disappears	Clears from a hotbar slot if it was parked in one		items/item.gd:_blink_then_despawn	Item.tree_exiting	implemented	P2	Can happen while the item is being dragged or is sitting in a hotbar slot - a slot preserves the item, not its lifetime.
TRUE	Items	Item	item_junk_useless	Junk is dropped on a gladiator	ItemDef.Type.JUNK - no effect and no equipment	The player fed the gladiator a piece of rubbish. Junk is the filler that makes the pile something to sift through, so being told plainly that this piece does nothing is part of teaching the item mix.	Flat comedic nothing-sound	1	FALSE		Existing: no outline highlight while hovering, since can_use_on is false	Nothing happens; the item stays in the world		items/item.gd:can_use_on	GlobalSignalBus.item_drop_rejected(item, unit)	implemented	P2	Junk is drawn as the plain grey placeholder square and carries no texture.
TRUE	Hotbar	UI	hotbar_slot_filled	A released item is claimed by a hotbar slot	The cursor or the item overlaps an empty slot's rect on release	The player banks an item for later. It snaps upright into the slot and freezes there, ready for a number key. Needs a positive, definite click so the player knows it was caught rather than dropped on the floor.	Crisp slot-click with a little heft	2	FALSE		Existing: item freezes upright at the slot's world position	The item renders inside the slot square		items/hotbar/hotbar_slot.gd:place	GlobalSignalBus.hotbar_slot_filled(slot_number, item)	implemented	P0	The item stays a live RigidBody2D in the world behind the UI layer; its despawn countdown keeps running.
TRUE	Hotbar	UI	hotbar_slot_replaced	An item is placed into a slot that already held one	The previous occupant is destroyed outright	The player overwrites a stored item and the old one is gone for good - replaced, not swapped back into the pile. That is a real loss and should sound different from filling an empty slot.	Slot click with a discard element underneath	1	FALSE		Existing: the old item is freed and vanishes	The slot's contents change		items/hotbar/hotbar_slot.gd:place	GlobalSignalBus.hotbar_slot_replaced(slot_number, item)	implemented	P1	The displaced item is queue_free'd, not returned to the pile - unlike an equipment swap.
TRUE	Hotbar	UI	hotbar_item_removed	A slotted item leaves its slot	Dragged out, consumed, or despawned in place	The slot empties. Three different causes funnel here, so this is a neutral empty-out rather than a reaction - the grab and consume rows carry the flavour.	Soft slot-empty tick	1	FALSE		Existing: item unfreezes and rejoins the pile, or is freed	Slot shows empty		items/hotbar/hotbar_slot.gd:_on_item_left	GlobalSignalBus.hotbar_item_removed(slot_number)	implemented	P2	Both exit routes are wired to the same handler - do not also play the grab sound here or it doubles.
TRUE	Hotbar	Hero Gladiator	hotbar_slot_used	The player presses a hotbar number key with an item stored	hotbar_1 through hotbar_4, hero alive, slot occupied	The player spends a banked item on their gladiator without dragging anything. This is the fast path in a tense moment - the health bar is low and they are hitting a key - so it needs instant confirmation.	Key-activate click; the consume sound follows immediately	1	FALSE		Existing: the item is consumed and freed	Slot empties and the relevant bar rises		items/hotbar/hotbar.gd:_use_slot	GlobalSignalBus.hotbar_slot_used(slot_number)	implemented	P0	Layers with item_consumed_meat or _potion on the same frame - keep this one short.
TRUE	Hotbar	UI	hotbar_slot_empty_pressed	The player presses a number key for an empty slot	Slot is empty	The player reached for something that is not there. Under pressure they will mash these keys, so telling them the slot is empty is more useful than silence - but it must stay quiet enough to survive being spammed.	Very short dull reject	1	FALSE		Wanted: the empty slot could flash	Nothing happens today		items/hotbar/hotbar.gd:_use_slot	GlobalSignalBus.hotbar_use_failed(EMPTY_SLOT)	implemented	P1	Currently a silent no-op via HotbarSlot.use_on's is_empty() guard.
TRUE	Hotbar	UI	hotbar_use_blocked_dead_hero	The player presses a hotbar key after their gladiator has died	hero is null or not alive	The match is already lost and the player is still hitting keys. Should read as unmistakably over - not the same reject as an empty slot, because no slot would work now.	Flat dead reject, lower than the empty-slot cue	1	FALSE		—	Nothing happens today		items/hotbar/hotbar.gd:_use_slot	GlobalSignalBus.hotbar_use_failed(HERO_DEAD)	implemented	P2	Guarded at the top of _use_slot before any slot is consulted.
TRUE	UI	UI	ui_button_hovered	The cursor moves over a menu button	Any focusable menu button	Standard menu navigation feedback. Applies across the title screen, options and pause menu, so it must be inoffensive at high repetition.	Light navigate tick	1	FALSE		Existing: theme hover state	Button highlights		common/ui/main_menu/SFX/main_menu_audio.gd:_on_hover	GlobalSignalBus.ui_button_hovered	implemented	P1	Asset exists: common/audio/sfx/ui/aud_ui_navigate.wav
TRUE	UI	UI	ui_button_pressed	The player clicks a menu button	Any menu button, including the battle restart button	The universal confirm. Every menu action and the restart button route through here, so it is the most-heard sound in the game outside combat.	Standard UI confirm click	1	FALSE		Existing: theme pressed state	The button's action runs		prototypes/battle_end_overlay.gd:_on_restart_pressed	GlobalSignalBus.ui_button_pressed	implemented	P1	Asset exists: common/audio/sfx/ui/UI_CLICK.wav. Note this same file is currently misused as the combat HIT_SOUND in auto_battle_prototype.gd - replacing that is the first job once combat SFX land.
TRUE	UI	UI	ui_menu_opened	A menu panel opens	Options opened from the title or pause menu	A panel slides in over whatever was there. Paired with the close cue so the menu feels like it has depth rather than just swapping screens.	Panel open whoosh	1	FALSE		Existing: panel visibility swap	MainPanel hides, OptionsMenu shows		common/ui/main_menu/SFX/main_menu_audio.gd:_on_open	—	implemented	P2	Asset exists: common/audio/sfx/ui/aud_ui_open.wav
TRUE	UI	UI	ui_menu_closed	A menu panel closes	Back pressed from the options menu	The reverse of the open cue - the player is stepping back out to where they were.	Panel close whoosh	1	FALSE		Existing: panel visibility swap	OptionsMenu hides, MainPanel shows		common/ui/main_menu/SFX/main_menu_audio.gd:_on_close	—	implemented	P2	Asset exists: common/audio/sfx/ui/aud_ui_close.wav
TRUE	UI	System	ui_game_paused	The player pauses mid-match	The pause action is pressed while unpaused	The arena freezes. The fight stops dead mid-swing and the pause panel appears, so the audio needs to clearly mark the world going quiet - ideally the ambient bed and music duck here too.	Pause thunk with a filter sweep on everything else	1	FALSE		Existing: the whole tree pauses; the pause panel becomes visible	Pause menu shows	Duck or pause the battle music	common/ui/pause_menu/pause_menu.gd:pause	GlobalSignalBus.game_paused	implemented	P1	Asset exists: common/audio/sfx/ui/aud_ui_pause.wav. Zero-argument signal, so SoundEffectConnector can wire it as pure scene data.
TRUE	UI	System	ui_game_unpaused	The player resumes the match	Pause toggled off, or Continue pressed	The fight snaps back to life from exactly where it froze. Should feel like a release of held breath, and must restore whatever the pause ducked.	Release thunk, filter sweep back open	1	FALSE		Existing: tree unpauses, panel hides	Pause menu hides	Restore the battle music	common/ui/pause_menu/pause_menu.gd:unpause	GlobalSignalBus.game_unpaused	implemented	P1	Asset exists: common/audio/sfx/ui/aud_ui_unpause.wav. Emitted from both pause() and unpause().
TRUE	UI	UI	ui_slider_changed	The player drags a volume slider	Any of the five bus sliders in the options menu	The player is setting volumes and needs to hear the result. The tick has to play on the bus being adjusted or it tells them nothing about that bus.	Short neutral tick	1	FALSE		Existing: slider moves	Bus volume applied and written to the settings file		common/ui/options_menu/options_menu.gd:on_audio_slider_changed	—	implemented	P1	Routing matters: main_menu_audio.gd currently plays this on the UI player regardless of which bus was moved.
TRUE	UI	UI	ui_window_mode_toggled	The player switches between windowed and fullscreen	The window button is pressed	The window resizes under the player. A confirmation is useful because the visual change is dramatic enough to be disorienting.	Standard UI confirm click	1	FALSE		Existing: the OS window mode changes	Button label updates		common/ui/options_menu/options_menu.gd:on_window_button_pressed	—	implemented	P2	Written back to user://settings.tres immediately.
TRUE	UI	System	ui_scene_transition_started	A fade-out begins before a scene change	change_scene_with_transition is called	The screen fades to black on the way somewhere else. Covers title-to-match, match-to-menu and credits, and is the natural place to fade the outgoing music.	Low transition whoosh	1	FALSE		Existing: the transition scene plays its FadeOut animation	Screen fades out	Fade out the outgoing track	globals/scene_transition_manager.gd:_on_fade_out	SceneTransitionManager.faded_out	implemented	P1	Zero-argument signal on the SceneTransitionManager autoload, not on GlobalSignalBus.
TRUE	UI	System	ui_scene_transition_finished	The fade-in completes on the new scene	The FadeIn animation ends and the transition frees itself	The new scene is revealed and playable. This is where the incoming music and ambience should be up to full.	Transition tail	1	FALSE		Existing: the transition instance frees itself	Screen fades in	Bring the incoming track up	globals/scene_transition_manager.gd:_on_fade_in	SceneTransitionManager.faded_in	implemented	P1	Zero-argument signal on the SceneTransitionManager autoload.
TRUE	UI	System	ui_title_screen_started	The title screen becomes active	Emitted from the main menu's audio node on ready	First thing the player ever hears. Sets the tone for the whole game before they have seen a single swing.	Optional title sting over the music	1	FALSE		Existing: main menu shown	Main menu buttons available	music_title starts here	common/ui/main_menu/SFX/main_menu_audio.gd:_ready	GlobalSignalBus.title_screen_started	implemented	P1	Zero-argument signal - wirable through SoundEffectConnector with no code.
TRUE	UI	System	ui_credits_started	The credits screen is opened	Credits pressed on the main menu	The player is reading who made this. Wants its own music bed and no gameplay noise underneath.	None; the music carries it	0	FALSE		Existing: scene change with a fade	Credits screen shown	Its own track	common/ui/main_menu/main_menu.gd:_on_credits_pressed	GlobalSignalBus.credits_screen_started	implemented	P2	Zero-argument signal - wirable through SoundEffectConnector.
TRUE	UI	System	ui_quit	The player quits the game	Quit pressed on the title or pause menu; hidden on web builds	The application is about to close. Almost anything here is cut off by the process exiting, so treat it as optional.	Very short exit tone, if any	1	FALSE		Existing: the window closes	—		common/ui/main_menu/main_menu.gd:_on_quit_pressed	—	implemented	P2	get_tree().quit() returns immediately - a long sample will not finish.
TRUE	UI	UI	ui_damage_number_spawned	A floating damage number appears over a gladiator	Every unit_hurt emission	The number that drifts up off a struck fighter, including a 0 when armor ate the hit. Purely visual and already implemented - listed so the feedback catalogue is complete and so it is not accidentally given a sound of its own on top of the impact.	None; the hit rows own the audio	0	FALSE		Existing: DamageNumber drifts up 40px and fades over ~0.7s	The number itself		auto_battle_prototype.gd:_on_unit_hurt	GlobalSignalBus.unit_hurt	implemented	P2	This handler also currently plays UI_CLICK.wav as a placeholder hit sound - that call is what the combat hit rows replace.
FALSE	Ambience	Crowd	ambient_arena_bed_start	The arena crowd bed begins	On entering a battle scene	The colosseum is full and never silent. This bed runs under the entire match and is what makes the arena feel occupied - every other sound is mixed against it, so it must sit low and leave room.	Looping crowd murmur bed	1	TRUE	ambient_arena_bed_stop	—	—	Sits under the battle music	—	NEW: arena ambience start	planned	P0	common/audio/sfx/cheerwhitenoise.ogg already exists and can serve as this bed. Route through GSoundManager.SoundPlayerType.AMBIENT.
FALSE	Ambience	Crowd	ambient_arena_bed_stop	The arena crowd bed ends	On leaving the battle scene	The crowd falls away as the player exits to a menu. Purely the stop half of the pair.	Fade out rather than a hard cut	0	FALSE		—	—		—	NEW: arena ambience stop	planned	P0	Stop cue for ambient_arena_bed_start. GSoundManager.stop_sound(AMBIENT) already exists.
FALSE	Ambience	Crowd	crowd_cheer_hit	The crowd reacts to a solid blow	Damage above a threshold; rate-limited so it cannot fire every swing	The crowd surges at a big hit. This is what makes the arena feel alive and reactive rather than a looped murmur - but it must be gated, or a fast attack pattern turns it into constant noise.	Short crowd swell over the bed	3	FALSE		—	—		battle_unit.gd:take_damage	GlobalSignalBus.unit_hurt	planned	P1	Needs a damage threshold and a cooldown. A rogue-pattern unit can land several hits per second.
FALSE	Ambience	Crowd	crowd_gasp_hero_hurt	The crowd reacts to the hero taking a heavy hit	Hero side, large damage relative to remaining health	The crowd is on the player's side. A gasp when their fighter takes a bad one reinforces that the player has a stake in this, and doubles as a warning that health is getting dangerous.	Sharp intake, crowd-wide	2	FALSE		—	—		battle_unit.gd:_emit_hurt	GlobalSignalBus.hero_gladiator_hurt	planned	P2	hero_gladiator_hurt is a single-argument signal, so SoundEffectConnector can bind it directly - but the connector cannot apply a damage threshold.
FALSE	Ambience	Crowd	crowd_roar_victory	The crowd erupts when the hero wins	battle_ended(true)	The payoff moment. Should be the loudest thing in the game and should carry over the top of the victory stinger rather than competing with it.	Full crowd roar with a long tail	1	FALSE		—	Plays under the result panel	Over music_victory	auto_battle_prototype.gd:_on_unit_died	GlobalSignalBus.battle_ended	planned	P1	Should replace or heavily duck the ambient bed for its duration.
FALSE	Ambience	Crowd	crowd_boo_defeat	The crowd turns when the hero loses	battle_ended(false)	The crowd is not on the player's side any more. A jeer or a disappointed fall-away, deliberately the opposite shape to the victory roar.	Jeering or a deflating fall-away	1	FALSE		—	Plays under the result panel	Over music_defeat	auto_battle_prototype.gd:_on_unit_died	GlobalSignalBus.battle_ended	planned	P1	Same signal as the victory roar - the bool argument decides which.
FALSE	Ambience	Crowd	crowd_react_gear_broke	The crowd reacts to a gladiator's gear shattering	Any broken(slot, item_def)	The crowd notices the sword go. A reaction here makes gear breaking feel like an event in the arena rather than a private inventory change, and reinforces a moment the player must not miss.	Short surprised crowd reaction	2	FALSE		—	—		items/equipment/equipment_component.gd:_wear	EquipmentComponent.broken	planned	P2	Layer under the break sound, offset slightly so the break reads first.
FALSE	Ambience	Crowd	crowd_intensity_change	The crowd bed shifts intensity as the match swings	Driven by combined health, or by how close the fight is	The crowd gets louder as the fight gets closer. A continuous dynamic layer rather than an event, so the arena tracks the drama without anyone scripting it per match.	Cross-faded intensity layers over the base bed	3	TRUE	ambient_arena_bed_stop	—	—	Should move together with the music intensity	—	NEW: intensity driver	planned	P2	Design sketch exists at docs/design/audio-systems/dyn-music.excalidraw.json.
FALSE	Music	System	music_title	Title screen music starts	On entering the main menu	The game's front door. Loops indefinitely while the player sits on the menu or pokes at options.	—	1	TRUE	ui_scene_transition_started	—	—	common/audio/music/music_title_screen-loop.ogg	common/ui/main_menu/SFX/main_menu_audio.gd:_ready	GlobalSignalBus.title_screen_started	planned	P1	Track exists; nothing plays it today.
FALSE	Music	System	music_pre_match	Pre-fight music plays	During the match intro beat, before the fighting starts	The walk-out. Sets the arena up before the first swing, then hands off to the battle track.	—	1	TRUE	music_battle_intro	—	—	common/audio/music/Outside the Colosseum.ogg	—	NEW: match_intro_started	planned	P2	Depends on match_intro existing; today the fight starts on the first frame.
FALSE	Music	System	music_battle_intro	The battle track's intro section plays	At match start	The one-shot opening of the battle theme, which hands over to the loop when it ends. MusicPlayerLooper already implements exactly this intro-then-loop handoff.	—	1	FALSE		—	—	common/audio/music/I've Got Your Back! (Intro).ogg	globals/sound_manager/music_player_looper.gd:play_music	MusicPlayerLooper.intro_started	planned	P0	The looper exists and is unused in the battle scene. It hands over on a timer sized from the intro's own length.
FALSE	Music	System	music_battle_loop	The battle track's main loop takes over	When the intro section finishes	The bed the whole fight happens over. Everything else - hits, crowd, gear breaking - is mixed against this, so it must leave headroom in the mid-range.	—	1	TRUE	match_ended_hero_victory	—	—	common/audio/music/I've Got Your Back! (Main Loop).ogg	globals/sound_manager/music_player_looper.gd:_switch_stream_to_loop	MusicPlayerLooper.loop_started	planned	P0	Also stopped by match_ended_hero_defeat; only one stop event fits this column.
FALSE	Music	System	music_victory	Victory music plays	battle_ended(true)	Plays over the crowd roar and under the result panel. Should start the instant the enemy falls, not when the panel appears roughly a second later.	—	1	FALSE		—	Plays under the result panel	common/audio/music/Victorious.ogg	auto_battle_prototype.gd:_on_unit_died	GlobalSignalBus.battle_ended	planned	P0	Cut the battle loop first so the two do not overlap.
FALSE	Music	System	music_defeat	Defeat music plays	battle_ended(false)	The counterpart to the victory track, on the same timing. The player is watching their gladiator fall and about to be offered a restart.	—	1	FALSE		—	Plays under the result panel	common/audio/music/To Suffer a Loss (Game Over).ogg	auto_battle_prototype.gd:_on_unit_died	GlobalSignalBus.battle_ended	planned	P0	Same signal as victory - the bool argument decides which.
FALSE	Music	System	music_duck_for_stinger	The music ducks so a key moment can cut through	Gear breaking, a death, or any other stinger event	Not a sound of its own - a mixing behaviour. The battle loop drops a few dB for a moment so a shattering sword or a killing blow is unmistakable instead of buried.	—	0	FALSE		—	—	Applies to whichever track is playing	—	NEW: duck request	planned	P2	Implement as a bus-level ducking on the Music bus; the buses already exist in default_bus_layout.tres.
